Folder: public-code/Bright Region Reset/dataproducts/FTIR

Note: Bright Region Reset/README.md
# Bright Region Reset

Grosson, T.; et al. "Bright Region Reset: an on-detector strategy for minimizing the impacts of atmospheric emission lines on spectral observations." *In prep.*

Select data products are provided in the `dataproducts/` directory. This includes final reduced spectra (`spectra/`), filter transmission spectra (`FTIR/`), and theoretical Ar and sky emission spectra.

**Main.ipynb**: Code for reducing raw FITS images to final spectra.

**Plots.ipynb**: Code for creating plots.

**reduce.py**: Code for working with data containing on-detector guide windows.

File: Thin mystery glass.csv
Created as New Dataset,Sample 074 By Student Date Tuesday, February 27 2024
cm-1,%T
8000.00,89.56
7978.00,89.58
7956.00,89.60
7934.00,89.68
7912.00,89.83
7890.00,89.74
7868.00,89.78
7846.00,89.86
7824.00,89.85
7802.00,89.76
7780.00,89.73
7758.00,89.75
7736.00,89.74
7714.00,89.75
7692.00,89.81
7670.00,89.77
7648.00,89.78
7626.00,89.82
7604.00,89.63
7582.00,89.82
7560.00,89.78
7538.00,89.83
7516.00,89.75
7494.00,89.64
7472.00,89.61
7450.00,89.69
7428.00,89.68
7406.00,89.62
7384.00,89.56
7362.00,89.42
7340.00,89.17
7318.00,88.88
7296.00,88.79
7274.00,88.53
7252.00,88.43
7230.00,88.30
7208.00,88.18
7186.00,88.12
7164.00,88.03
7142.00,88.01
7120.00,88.01
7098.00,88.04
7076.00,88.01
7054.00,88.09
7032.00,88.11
7010.00,88.21
6988.00,88.20
6966.00,88.22
6944.00,88.30
6922.00,88.32
6900.00,88.36
6878.00,88.41
6856.00,88.45
6834.00,88.52
6812.00,88.53
6790.00,88.53
6768.00,88.59
6746.00,88.66
6724.00,88.69
6702.00,88.71
6680.00,88.79
6658.00,88.81
6636.00,88.85
6614.00,88.87
6592.00,88.87
6570.00,88.91
6548.00,88.97
6526.00,88.98
6504.00,89.03
6482.00,89.06
6460.00,89.07
6438.00,89.07
6416.00,89.09
6394.00,89.11
6372.00,89.15
6350.00,89.17
6328.00,89.21
6306.00,89.23
6284.00,89.22
6262.00,89.24
6240.00,89.26
6218.00,89.28
6196.00,89.29
6174.00,89.30
6152.00,89.33
6130.00,89.36
6108.00,89.39
6086.00,89.37
6064.00,89.40
6042.00,89.40
6020.00,89.41
5998.00,89.43
5976.00,89.46
5954.00,89.50
5932.00,89.54
5910.00,89.56
5888.00,89.56
5866.00,89.62
5844.00,89.65
5822.00,89.60
5800.00,89.62
5778.00,89.60
5756.00,89.61
5734.00,89.62
5712.00,89.65
5690.00,89.62
5668.00,89.62
5646.00,89.60
5624.00,89.62
5602.00,89.63
5580.00,89.62
5558.00,89.63
5536.00,89.62
5514.00,89.64
5492.00,89.66
5470.00,89.66
5448.00,89.68
5426.00,89.67
5404.00,89.67
5382.00,89.66
5360.00,89.69
5338.00,89.68
5316.00,89.71
5294.00,89.68
5272.00,89.70
5250.00,89.69
5228.00,89.70
5206.00,89.70
5184.00,89.70
5162.00,89.70
5140.00,89.73
5118.00,89.74
5096.00,89.73
5074.00,89.75
5052.00,89.75
5030.00,89.75
5008.00,89.74
4986.00,89.75
4964.00,89.75
4942.00,89.76
4920.00,89.76
4898.00,89.77
4876.00,89.76
4854.00,89.77
4832.00,89.75
4810.00,89.76
4788.00,89.76
4766.00,89.78
4744.00,89.89
4722.00,89.95
4700.00,89.87
4678.00,89.90
4656.00,89.86
4634.00,89.79
4612.00,89.69
4590.00,89.59
4568.00,89.45
4546.00,89.36
4524.00,89.30
4502.00,89.28
4480.00,89.27
4458.00,89.30
4436.00,89.34
4414.00,89.37
4392.00,89.40
4370.00,89.43
4348.00,89.46
4326.00,89.48
4304.00,89.49
4282.00,89.51
4260.00,89.53
4238.00,89.55
4216.00,89.54
4194.00,89.53
4172.00,89.52
4150.00,89.50
4128.00,89.45
4106.00,89.41
4084.00,89.36
4062.00,89.31
4040.00,89.26
4018.00,89.23
3996.00,89.20
3974.00,89.17
3952.00,89.13
3930.00,89.12
3908.00,89.10
3886.00,89.09
3864.00,89.05
3842.00,89.02
3820.00,89.01
3798.00,88.96
3776.00,88.87
3754.00,88.71
3732.00,88.50
3710.00,87.95
3688.00,86.34
3666.00,82.44
3644.00,77.09
3622.00,72.14
3600.00,68.60
3578.00,66.41
3556.00,65.19
3534.00,64.61
3512.00,64.38
3490.00,64.38
3468.00,64.58
3446.00,64.75
3424.00,65.02
3402.00,65.38
3380.00,65.63
3358.00,65.90
3336.00,66.14
3314.00,66.32
3292.00,66.45
3270.00,66.45
3248.00,66.33
3226.00,66.14
3204.00,65.93
3182.00,65.64
3160.00,65.30
3138.00,64.94
3116.00,64.56
3094.00,64.08
3072.00,63.63
3050.00,63.22
3028.00,62.79
3006.00,62.39
2984.00,62.01
2962.00,61.57
2940.00,61.24
2918.00,60.65
2896.00,60.84
2874.00,60.80
2852.00,60.59
2830.00,60.92
2808.00,61.10
2786.00,61.35
2764.00,61.65
2742.00,61.98
2720.00,62.35
2698.00,62.75
2676.00,63.17
2654.00,63.61
2632.00,64.07
2610.00,64.54
2588.00,64.98
2566.00,65.33
2544.00,65.54
2522.00,65.55
2500.00,65.28
2478.00,64.70
2456.00,63.75
2434.00,62.47
2412.00,60.88
2390.00,59.03
2368.00,57.19
2346.00,54.82
2324.00,51.89
2302.00,48.34
2280.00,44.18
2258.00,39.35
2236.00,34.06
2214.00,28.66
2192.00,23.48
2170.00,18.87
2148.00,15.08
2126.00,12.19
2104.00,10.18
2082.00,8.95
2060.00,8.17
2038.00,7.27
2016.00,5.79
1994.00,3.96
1972.00,2.40
1950.00,1.38
1928.00,0.80
1906.00,0.47
1884.00,0.28
1862.00,0.16
1840.00,0.08
1818.00,0.05
1796.00,0.03
1774.00,0.02
1752.00,0.02
1730.00,0.03
1708.00,0.04
1686.00,0.05
1664.00,0.04
1642.00,0.03
1620.00,0.02
1598.00,0.02
1576.00,0.02
1554.00,0.04
1532.00,0.05
1510.00,0.05
1500.00,0.04